Folder: Sciplot.com/src/static/files/Xrd

Note: README.md
# This file contains important commands that need to be run occasionally

pip list --format=freeze > requirements.txt

File: xrd.txt
5.0001 0
5.18466 -0.0823019
5.36921 -0.0561117
5.55377 0.0470639
5.73832 0.0188915
5.92288 0.0601647
6.10743 0.205725
6.29199 0.0845201
6.47654 0.0923842
6.6611 0.010567
6.84565 0.0977896
7.03021 0.099813
7.21476 0.220489
7.39932 0.050614
7.58387 -0.00339198
7.76843 0.0195875
7.95298 0.0883023
8.13754 0.161086
8.32209 -0.0272482
8.50665 -0.0104953
8.6912 -0.0404318
8.87576 0.0873528
9.06032 -0.0307938
9.24487 -0.124038
9.42943 0.026369
9.61398 -0.0274882
9.79854 -0.181443
9.98309 -0.125272
10.1676 0.0119548
10.3522 -0.0550828
10.5368 0.309032
10.7213 -0.124869
10.9059 0.00574814
11.0904 0.0258503
11.275 0.0604378
11.4595 0.182427
11.6441 0.256402
11.8286 0.146946
12.0132 0.260308
12.1978 0.294406
12.3823 -0.0215944
12.5669 0.0206407
12.7514 0.234137
12.936 0.206976
13.1205 0.110967
13.3051 0.0919429
13.4896 -0.0603818
13.6742 0.202821
13.8588 0.324259
14.0433 0.428932
14.2279 0.568924
14.4124 1.14007
14.597 3.38195
14.7815 4.20081
14.9661 6.20083
15.1506 20.6424
15.3352 10.1714
15.5197 2.79821
15.7043 1.42908
15.8889 0.543195
16.0734 0.171791
16.258 -0.122628
16.4425 0.159939
16.6271 0.0194906
16.8116 -0.0856387
16.9962 0.0320506
17.1807 0.0799312
17.3653 0.0328021
17.5499 0.0174002
17.7344 -0.105998
17.919 0.0871732
18.1035 0.201079
18.2881 -0.118446
18.4726 0.0446563
18.6572 0.0259236
18.8417 -0.0512404
19.0263 -0.0201691
19.2109 0.077471
19.3954 -0.279154
19.58 0.014245
19.7645 0.0517193
19.9491 -0.146321
20.1336 0.0867907
20.3182 -0.00936227
20.5027 0.148554
20.6873 0.352205
20.8719 0.372425
21.0564 0.980046
21.241 1.26882
21.4255 1.93666
21.6101 1.27524
21.7946 1.20122
21.9792 0.902103
22.1637 0.242471
22.3483 0.10774
22.5328 0.164578
22.7174 0.215069
22.902 -0.157456
23.0865 -0.161328
23.2711 0.114733
23.4556 -0.0218046
23.6402 0.0748935
23.8247 -0.0731678
24.0093 0.29215
24.1938 0.11987
24.3784 -0.142092
24.563 0.110432
24.7475 0.0128579
24.9321 -0.0911283
25.1166 0.182564
25.3012 0.0477695
25.4857 -0.0933728
25.6703 0.0195536
25.8548 0.0731759
26.0394 0.141034
26.224 0.150461
26.4085 0.0181235
26.5931 0.223188
26.7776 -0.00517906
26.9622 0.197606
27.1467 0.0711266
27.3313 0.167466
27.5158 0.0907904
27.7004 0.0439054
27.885 0.0570832
28.0695 -0.0715036
28.2541 0.0435616
28.4386 0.247818
28.6232 0.0890951
28.8077 0.194857
28.9923 0.408855
29.1768 0.449838
29.3614 1.06781
29.5459 1.14818
29.7305 2.38887
29.9151 6.10237
30.0996 14.1012
30.2842 21.4583
30.4687 27.8715
30.6533 35.4138
30.8378 22.9705
31.0224 10.8543
31.2069 4.39835
31.3915 1.65483
31.5761 1.46745
31.7606 0.825816
31.9452 0.761163
32.1297 0.471412
32.3143 0.258646
32.4988 0.102033
32.6834 -0.0296789
32.8679 -0.115655
33.0525 0.0212168
33.2371 -0.0412357
33.4216 -0.0552596
33.6062 0.0260407
33.7907 0.23641
33.9753 0.284181
34.1598 0.398521
34.3444 0.277346
34.5289 0.462323
34.7135 0.286785
34.898 0.0424
35.0826 -0.0833333
35.2672 -0.0924435
35.4517 -0.0558493
35.6363 -0.077702
35.8208 0.133681
36.0054 -0.150868
36.1899 -0.0620948
36.3745 -0.120842
36.559 0.0805223
36.7436 0.0463715
36.9282 0.141289
37.1127 0.542359
37.2973 0.645415
37.4818 1.01296
37.6664 0.717898
37.8509 0.77066
38.0355 0.317073
38.22 0.377972
38.4046 0.109606
38.5892 0.0744758
38.7737 -0.0711692
38.9583 0.0164212
39.1428 -0.0514027
39.3274 -0.0743899
39.5119 -0.10919
39.6965 0.0734789
39.881 -0.0106167
40.0656 -0.0393927
40.2502 -0.0409533
40.4347 0.0508471
40.6193 0.0217162
40.8038 0.059154
40.9884 0.00606598
41.1729 0.236608
41.3575 -0.037784
41.542 0.0461084
41.7266 0.11096
41.9111 -0.102614
42.0957 0.042516
42.2803 -0.00620218
42.4648 0.0324817
42.6494 -0.0807695
42.8339 0.0188735
43.0185 0.164252
43.203 0.199116
43.3876 0.383882
43.5721 0.46855
43.7567 0.79687
43.9413 0.608425
44.1258 0.267799
44.3104 0.118742
44.4949 0.0154198
44.6795 0.134917
44.864 0.123065
45.0486 0.0626602
45.2331 0.0551284
45.4177 0.155832
45.6023 -0.0935624
45.7868 0.125731
45.9714 0.17201
46.1559 0.222357
46.3405 0.28719
46.525 0.439424
46.7096 0.491561
46.8941 0.245683
47.0787 0.118458
47.2633 -0.0151161
47.4478 0.0428789
47.6324 0.159024
47.8169 -0.0773351
48.0015 0.148708
48.186 -0.0690963
48.3706 0.0176546
48.5551 0.0251409
48.7397 0.099196
48.9242 0.166903
49.1088 0.0928455
49.2934 0.07494
49.4779 0.238187
49.6625 0.270085
49.847 0.0560524
50.0316 0.00233844
50.2161 0.18186
50.4007 0.0216999
50.5852 -0.019808
50.7698 -0.102719
50.9544 0.0067497
51.1389 0.120287
51.3235 0.0608094
51.508 -0.0883494
51.6926 0.0951464
51.8771 0.0847942
52.0617 0.0785108
52.2462 0.0498895
52.4308 0.0246073
52.6154 0.159644
52.7999 -0.0693199
52.9845 -0.0303523
53.169 -0.0706493
53.3536 0.0842445
53.5381 0.0140403
53.7227 0.0836655
53.9072 0.0226307
54.0918 -0.0655854
54.2763 0.100267
54.4609 0.134772
54.6455 0.0795954
54.83 0.132654
55.0146 0.122133
55.1991 0.0245634
55.3837 0.056063
55.5682 -0.000402125
55.7528 -0.022636
55.9373 -0.0824679
56.1219 -0.00281432
56.3065 -0.0690998
56.491 0.0436217
56.6756 -0.0479215
56.8601 0.0937707
57.0447 -0.0417183
57.2292 0.0351946
57.4138 0.0536763
57.5983 0.0222175
57.7829 0.0210873
57.9675 0.0653213
58.152 0.154548
58.3366 0.237428
58.5211 0.0639587
58.7057 -0.0429415
58.8902 0.0417271
59.0748 0.140881
59.2593 -0.0267297
59.4439 -0.0545024
59.6285 -0.0675077
59.813 -0.118262
59.9976 0.137137
60.0386 0